{
    "resourceType": "Bundle",
    "id": "id_composition",
    "meta": {
        "lastUpdated": "data_atual",
        "profile": [
    "http://spms.min-saude.pt/pnb/profiles/mcdt_results_sync/v1.5.8"
        ]
    },
    "type": "message",
    "entry": [
        {
            "fullUrl": "http://spms.min-saude.pt/fhir/MessageHeader/id_composition","resource": {
                "resourceType": "MessageHeader",
                "id": "id_composition",
                "event": {
                    "system": "http://spms.min-saude.pt/pnb/events",
                    "code": "10705",
                    "display": "MCDT_RESULTS_SYNCHRONIZATION"
                },
                "destination": [
                    {
                        "name": "RequiringApp",
                        "endpoint": "SPMS/HEP"
                    },
                    {
                        "name": "BDNR",
                        "endpoint": "SPMS/BDNR"
                    }
                ],
                "sender": {
                    "reference": "items.0.3.items.4.items.1.value",
                    "display": "items.0.3.items.4.items.0.value"
                },
                "timestamp": "data_atual",
                "source": {
                    "endpoint": "101.20.15.12"
                },
                "focus": [
                    {
                        "reference": "id_composition"
                    }
                ]
            }
        },
        {
            "fullUrl": "http://spms.min-saude.pt/fhir/Patient/id_paciente","resource": {
                "resourceType": "Patient",
                "id": "items.0.2.items.0.items.2.value",
                "extension": [
                    {
                        "url": "http://spms.min-saude.pt/pnb/extensions/patient-coverage","valueReference": {
                            "reference": "items.0.5.items.2.items.0.value"
                        }
                    }
                ],
                "identifier": [
                    {
                        "type": {
                            "coding": [
                                {
                                    "system": "http://hl7.org/fhir/v2/0203","code": "HC",
                                    "display": "Health Card Number"
                                }
                            ],
                            "text": "SNS"
                        },
                        "system": "http://spms.min-saude.pt/rnu/identifiers/patient-id","value":"items.0.2.items.0.items.2.value"
                    }
                ],
                "name": [
                    {
                        "text": "items.0.2.items.0.items.0.value"
                    }
                ],
                "gender": "items.0.2.items.0.items.1.value.text",
                "address": [
                    {
                        "text": "items.0.2.items.0.items.3.items.0.value.0.value"
                    }
                ]
            }
        },
        {
            "fullUrl": "http://spms.min-saude.pt/fhir/DiagnosticReport/id_composition","resource": {
                "resourceType": "DiagnosticReport",
                "id": "id_composition",
                "meta": {
                    "security": [
                        {
                            "system": "http://hl7.org/fhir/v3/Confidentiality","code": "R",
                            "display": "Restricted"
                        }
                    ]
                },
                "basedOn": [
                    {
                        "identifier": {
                            "system": "https://spms.min-saude.pt/bdnr/identifiers/mcdt-request-id","value": "RQ2313-234"
                        }
                    }
                ],
                "status": "items.0.3.items.1.value.text",
                "category": {
                    "coding": [
                        {
                            "system": "http://www.acss.min-saude.pt/mcdt/valueset/clinical-areas","code":"items.0.3.items.0.value.code",
                            "display": "items.0.3.items.0.value.text"
                        }
                        
                    ]
                },
                "code": {
                    "coding": [
                        
                        {
                            "system": "https://www.acss.min-saude.pt/category/prestadores/convencionados/#tab_tabelas-meios-complementaresde-diagnostico-e-terapeutica","code": "items.0.3.items.2.value.0.code",
                            "display": "items.0.3.items.2.value.0.text"
                        }
                    ]
                },
                "subject": {
                    "reference": "items.0.2.items.0.items.2.value"
                },
                "issued": "data_atual",
                "performer": [
                    {
                        "actor": {
                            "reference": "items.0.3.items.4.items.1.value",
                            "display": "items.0.3.items.4.items.0.value"
                        }
                    },
                    {
                        "role": {
                            "coding": [
                                {
                                    "system": "http://snomed.info/sct",
                                    "display": "items.0.3.items.3.items.0.value.0.value"
                                }
                            ]
                        },
                        "actor": {
                            "reference": "items.0.3.items.3.items.1.value"
                            
                        }
                    }
                ],
                "result": [
                    {
                        "reference": "Observation"
                    }
                ],
                "conclusion": "items.0.3.items.5.value.0.value","presentedForm": [
                    {
                        "contentType": "application/pdf",
                        "language": "pt",
                        "data":"U291IGEgbmF2ZWdhbnRlIGRhIGx1YSBlIGVtIG5vbWUgZGEgbHVhIHZhaXMgc2VyIGNhc3RpZ2FkbyA6RA==","title": "Access key"
                    }
                ]
            }
        },
        {
            "fullUrl": "http://spms.min-saude.pt/fhir/Observation",
            "resource": {
                "resourceType": "Observation",
                "status": "items.0.3.items.1.value.text",
                "code": {
                    "coding": [
                        {
                            "system": "http://www.acss.minsaude.pt/2016/10/03/tabelas-meios-complementares-de-diagnostico-eterapeutica/codigo-sns",
                            "code": "items.0.3.items.2.value.0.code",
                            "display": "items.0.3.items.2.value.0.text"
                        }
                        
                    ]
                },
                "subject": {
                    "reference": "items.0.2.items.0.items.2.value"
                },
                "effectiveDateTime": "data_atual",
                "performer": [
                    {
                        "reference": "items.0.3.items.3.items.1.value"
                    }
                ],
                "valueQuantity": {
                    "value":"items.0.4.items.1.items.2.value",
                    "unit": "items.0.4.items.1.items.3.value",
                    "system": "http://unitsofmeasure.org"
                },
                "interpretation": {
                    "coding": [
                        {
                            "system": "http://hl7.org/fhir/v2/0078",
                            "display":"items.0.4.items.1.items.1.value.text"
                        }
                    ]
                },
                "device": {
                    "display":"items.0.4.items.1.items.4.value"
                }
            }
        },
        {
            "fullUrl": "http://spms.min-saude.pt/fhir/Practitioner/cedula_profissional","resource": {
                "resourceType": "Practitioner",
                "id":"items.0.3.items.3.items.1.value",
                "identifier": [
                    {
                        "type": {
                            "coding": [
                                {
                                    "system": "http://hl7.org/fhir/v2/0203","code": "MD",
                                    "display": "Medical License number"
                                }
                            ]
                        },
                        "system": "https://www.ordemdosmedicos.pt",
                        "value": "items.0.3.items.3.items.1.value"
                    }
                ]
            }
        },
        {
            "fullUrl": "http://spms.min-saude.pt/fhir/Coverage",
            "resource": {
                "resourceType": "Coverage",
                "id": "items.0.5.items.2.items.0.value",
                "identifier": [
                    {
                        "system": "https://www.adse.pt/identifiers",
                        "value": "items.0.5.items.2.items.1.value"
                    }
                ],
                "payor": [
                    {
                        "reference": "items.0.5.items.2.items.0.value"
                    }
                ]
            }
        },
        {
            "fullUrl": "http://spms.min-saude.pt/fhir/Organization","resource": {
                "resourceType": "Organization",
                "id": "items.0.3.items.4.items.1.value",
                "identifier": [
                    {
                        "system": "http://spms.min-saude.pt/sges/identifiers/providing-entity-id","value": "items.0.3.items.4.items.1.value"
                    }
                ],
                "name": "items.0.3.items.4.items.0.value"
            }
        }
    ]
}